Folder: thinFilmTransmission

Note: README.md
# thinFilmTransmission
This MATLAB code uses the Fresnel equations and matrix method to calculate the transmissivity and phase shift through thin film layers deposited on a substrate.

"thinFilmCalc.m" is legacy code and only supports 2 layers.

"TF_code_093021" is the latest code as of 10/4/21. It allows the user to define multiple thin film structures (upto 6 layers) and also read experimental data values and compare the transmission and phase shifts.

File: tio2_Ellipsometry_nk_300_1000.txt
300	2.8698	0.62912
303	2.8796	0.58399
306	2.8861	0.53852
309	2.8891	0.49301
312	2.8888	0.44779
315	2.885	0.40317
318	2.8779	0.35947
321	2.8675	0.31703
324	2.8539	0.27616
327	2.8373	0.23716
330	2.8178	0.20033
333	2.7954	0.16596
336	2.7699	0.13431
339	2.741	0.10756
342	2.7118	0.086519
345	2.6837	0.069856
348	2.657	0.056599
351	2.632	0.046011
354	2.6087	0.037523
357	2.5869	0.030696
360	2.5667	0.025188
363	2.5479	0.02073
366	2.5304	0.017111
369	2.514	0.014164
372	2.4988	0.011758
375	2.4845	0.0097877
378	2.4711	0.00817
381	2.4586	0.006838
384	2.4468	0.0057383
387	2.4357	0.004828
390	2.4252	0.0040725
393	2.4153	0.0034438
396	2.4059	0.0029193
399	2.397	0.0024807
402	2.3886	0.002113
405	2.3805	0.0018039
408	2.3729	0.0015436
411	2.3656	0.0013238
414	2.3586	0.0011378
417	2.3519	0.00098007
420	2.3455	0.00084597
423	2.3394	0.00073173
426	2.3335	0.0006342
429	2.3279	0.00055077
432	2.3225	0.00047925
435	2.3172	0.00041781
438	2.3122	0.00036494
441	2.3074	0.00031935
444	2.3027	0.00027995
447	2.2982	0.00024585
450	2.2938	0.00021629
453	2.2896	0.0001906
456	2.2855	0.00016824
459	2.2816	0.00014875
462	2.2778	0.00013173
465	2.2741	0.00011685
468	2.2705	0.0001038
471	2.267	9.2355e-005
474	2.2637	8.2294e-005
477	2.2604	7.3436e-005
480	2.2572	6.5626e-005
483	2.2541	5.8729e-005
486	2.2511	5.2631e-005
489	2.2482	4.723e-005
492	2.2453	4.244e-005
495	2.2426	3.8186e-005
498	2.2399	3.4403e-005
501	2.2373	3.1035e-005
504	2.2347	2.8031e-005
507	2.2322	2.5348e-005
510	2.2298	2.295e-005
513	2.2274	2.0804e-005
516	2.2251	1.888e-005
519	2.2229	1.7154e-005
522	2.2207	1.5603e-005
525	2.2185	1.4208e-005
528	2.2164	1.2952e-005
531	2.2144	1.1819e-005
534	2.2124	1.0797e-005
537	2.2104	9.8735e-006
540	2.2085	9.0381e-006
543	2.2066	8.2817e-006
546	2.2048	7.596e-006
549	2.203	6.9738e-006
552	2.2013	6.4086e-006
555	2.1996	5.8948e-006
558	2.1979	5.4272e-006
561	2.1962	5.0012e-006
564	2.1946	4.6127e-006
567	2.1931	4.2582e-006
570	2.1915	3.9342e-006
573	2.19	3.6381e-006
576	2.1885	3.367e-006
579	2.1871	3.1187e-006
582	2.1856	2.891e-006
585	2.1843	2.6821e-006
588	2.1829	2.4903e-006
591	2.1815	2.314e-006
594	2.1802	2.1518e-006
597	2.1789	2.0024e-006
600	2.1777	1.8648e-006
603	2.1764	1.738e-006
606	2.1752	1.6209e-006
609	2.174	1.5128e-006
612	2.1728	1.4129e-006
615	2.1717	1.3204e-006
618	2.1705	1.2349e-006
621	2.1694	1.1557e-006
624	2.1683	1.0822e-006
627	2.1673	1.0141e-006
630	2.1662	9.5091e-007
633	2.1652	8.922e-007
636	2.1641	8.3763e-007
639	2.1631	7.8687e-007
642	2.1622	7.3964e-007
645	2.1612	6.9566e-007
648	2.1602	6.5468e-007
651	2.1593	6.1646e-007
654	2.1584	5.8081e-007
657	2.1575	5.4753e-007
660	2.1566	5.1644e-007
663	2.1557	4.8738e-007
666	2.1548	4.6021e-007
669	2.154	4.3478e-007
672	2.1531	4.1097e-007
675	2.1523	3.8867e-007
678	2.1515	3.6777e-007
681	2.1507	3.4816e-007
684	2.1499	3.2977e-007
687	2.1492	3.125e-007
690	2.1484	2.9628e-007
693	2.1476	2.8103e-007
696	2.1469	2.667e-007
699	2.1462	2.5321e-007
702	2.1455	2.4052e-007
705	2.1448	2.2856e-007
708	2.1441	2.173e-007
711	2.1434	2.0668e-007
714	2.1427	1.9667e-007
717	2.142	1.8723e-007
720	2.1414	1.7831e-007
723	2.1407	1.6989e-007
726	2.1401	1.6194e-007
729	2.1395	1.5442e-007
732	2.1388	1.4731e-007
735	2.1382	1.4058e-007
738	2.1376	1.3421e-007
741	2.137	1.2818e-007
744	2.1364	1.2247e-007
747	2.1359	1.1706e-007
750	2.1353	1.1193e-007
753	2.1347	1.0707e-007
756	2.1342	1.0245e-007
759	2.1336	9.8067e-008
762	2.1331	9.3906e-008
765	2.1326	8.9954e-008
768	2.132	8.6198e-008
771	2.1315	8.2627e-008
774	2.131	7.9232e-008
777	2.1305	7.6002e-008
780	2.13	7.2927e-008
783	2.1295	7e-008
786	2.129	6.7213e-008
789	2.1285	6.4557e-008
792	2.1281	6.2026e-008
795	2.1276	5.9613e-008
798	2.1271	5.7312e-008
801	2.1267	5.5117e-008
804	2.1262	5.3021e-008
807	2.1258	5.1021e-008
810	2.1253	4.9111e-008
813	2.1249	4.7286e-008
816	2.1245	4.5543e-008
819	2.1241	4.3876e-008
822	2.1236	4.2282e-008
825	2.1232	4.0758e-008
828	2.1228	3.9299e-008
831	2.1224	3.7904e-008
834	2.122	3.6567e-008
837	2.1216	3.5288e-008
840	2.1212	3.4062e-008
843	2.1209	3.2887e-008
846	2.1205	3.1761e-008
849	2.1201	3.0682e-008
852	2.1197	2.9647e-008
855	2.1194	2.8654e-008
858	2.119	2.7701e-008
861	2.1186	2.6787e-008
864	2.1183	2.5909e-008
867	2.1179	2.5066e-008
870	2.1176	2.4256e-008
873	2.1172	2.3478e-008
876	2.1169	2.273e-008
879	2.1166	2.2011e-008
882	2.1162	2.132e-008
885	2.1159	2.0655e-008
888	2.1156	2.0015e-008
891	2.1153	1.9399e-008
894	2.1149	1.8807e-008
897	2.1146	1.8237e-008
900	2.1143	1.7687e-008
903	2.114	1.7158e-008
906	2.1137	1.6649e-008
909	2.1134	1.6157e-008
912	2.1131	1.5684e-008
915	2.1128	1.5227e-008
918	2.1125	1.4787e-008
921	2.1122	1.4363e-008
924	2.112	1.3953e-008
927	2.1117	1.3558e-008
930	2.1114	1.3177e-008
933	2.1111	1.2808e-008
936	2.1109	1.2453e-008
939	2.1106	1.2109e-008
942	2.1103	1.1778e-008
945	2.1101	1.1457e-008
948	2.1098	1.1147e-008
951	2.1095	1.0848e-008
954	2.1093	1.0559e-008
957	2.109	1.0279e-008
960	2.1088	1.0008e-008
963	2.1085	9.7462e-009
966	2.1083	9.4928e-009
969	2.108	9.2477e-009
972	2.1078	9.0104e-009
975	2.1076	8.7807e-009
978	2.1073	8.5582e-009
981	2.1071	8.3428e-009
984	2.1069	8.1342e-009
987	2.1066	7.932e-009
990	2.1064	7.7362e-009
993	2.1062	7.5463e-009
996	2.1059	7.3623e-009
999	2.1057	7.1839e-009
1000	2.1057	7.1257e-009